Stim,CorrResp,imStim,CR_trials.thisRepN,CR_trials.thisTrialN,CR_trials.thisN,CR_trials.thisIndex,Instr_CR_text.started,Instr_CR_text.stopped,Instr_CR_press.keys,Instr_CR_press.rt,Instr_CR_press.started,Instr_CR_press.stopped,circle_frame.started,circle_frame.stopped,stim_image.started,stim_image.stopped,CR_key_press.keys,CR_key_press.corr,CR_key_press.rt,CR_key_press.started,CR_key_press.stopped,participant,session,date,expName,psychopyVersion,frameRate,
,,,,,,,7.642633199924603,None,h,3.3578758999938145,7.642633199924603,None,,,,,,,,,,,001,2020_Jun_08_2137,Criterion,2020.1.3,60.18411524603435,
b,u,media/dbnb.png,0,0,0,1,,,,,,,11.09180599998217,None,11.09180599998217,None,['h'],0,[3.799747999990359],11.09180599998217,None,,001,2020_Jun_08_2137,Criterion,2020.1.3,60.18411524603435,
d,l,media/ddnb.png,0,1,1,3,,,,,,,14.924602499930188,None,14.924602499930188,None,['u'],0,[5.221206199959852],14.924602499930188,None,,001,2020_Jun_08_2137,Criterion,2020.1.3,60.18411524603435,
a,h,media/danb.png,0,2,2,0,,,,,,,20.177995499921963,None,20.177995499921963,None,['i'],0,[1.1908779999939725],20.177995499921963,None,,001,2020_Jun_08_2137,Criterion,2020.1.3,60.18411524603435,
c,i,media/dcnb.png,0,3,3,2,,,,,,,21.41957549995277,None,21.41957549995277,None,['l'],0,[0.5812657000496984],21.41957549995277,None,,001,2020_Jun_08_2137,Criterion,2020.1.3,60.18411524603435,
e,h,media/denb.png,0,4,4,4,,,,,,,22.03746349993162,None,22.03746349993162,None,['h'],0,[0.38669539999682456],22.03746349993162,None,,001,2020_Jun_08_2137,Criterion,2020.1.3,60.18411524603435,
h,l,media/dhnb.png,0,5,5,7,,,,,,,22.470736999996006,None,22.470736999996006,None,['u'],0,[0.22543840005528182],22.470736999996006,None,,001,2020_Jun_08_2137,Criterion,2020.1.3,60.18411524603435,
g,i,media/dgnb.png,0,6,6,6,,,,,,,22.72079870000016,None,22.72079870000016,None,['i'],0,[0.23976989998482168],22.72079870000016,None,,001,2020_Jun_08_2137,Criterion,2020.1.3,60.18411524603435,
f,u,media/dfnb.png,0,7,7,5,,,,,,,22.9974932000041,None,22.9974932000041,None,['l'],0,[0.23494370002299547],22.9974932000041,None,,001,2020_Jun_08_2137,Criterion,2020.1.3,60.18411524603435,
d,l,media/ddnb.png,1,0,8,3,,,,,,,23.275112199946307,None,23.275112199946307,None,['h'],0,[0.21310410008300096],23.275112199946307,None,,001,2020_Jun_08_2137,Criterion,2020.1.3,60.18411524603435,
e,h,media/denb.png,1,1,9,4,,,,,,,23.51767959992867,None,23.51767959992867,None,['u'],0,[0.2587036000331864],23.51767959992867,None,,001,2020_Jun_08_2137,Criterion,2020.1.3,60.18411524603435,
h,l,media/dhnb.png,1,2,10,7,,,,,,,23.799498099950142,None,23.799498099950142,None,['i'],0,[0.21682859992142767],23.799498099950142,None,,001,2020_Jun_08_2137,Criterion,2020.1.3,60.18411524603435,
b,u,media/dbnb.png,1,3,11,1,,,,,,,24.04752149991691,None,24.04752149991691,None,['l'],0,[0.24097469996195287],24.04752149991691,None,,001,2020_Jun_08_2137,Criterion,2020.1.3,60.18411524603435,
g,i,media/dgnb.png,1,4,12,6,,,,,,,24.330449200002477,None,24.330449200002477,None,['h'],0,[0.30195759993512183],24.330449200002477,None,,001,2020_Jun_08_2137,Criterion,2020.1.3,60.18411524603435,
c,i,media/dcnb.png,1,5,13,2,,,,,,,24.673126199981198,None,24.673126199981198,None,['u'],0,[0.18372059997636825],24.673126199981198,None,,001,2020_Jun_08_2137,Criterion,2020.1.3,60.18411524603435,
f,u,media/dfnb.png,1,6,14,5,,,,,,,24.883964099921286,None,24.883964099921286,None,['i'],0,[0.19704649993218482],24.883964099921286,None,,001,2020_Jun_08_2137,Criterion,2020.1.3,60.18411524603435,
a,h,media/danb.png,1,7,15,0,,,,,,,25.105992699973285,None,25.105992699973285,None,['l'],0,[0.1901746999938041],25.105992699973285,None,,001,2020_Jun_08_2137,Criterion,2020.1.3,60.18411524603435,
g,i,media/dgnb.png,2,0,16,6,,,,,,,25.32338840002194,None,25.32338840002194,None,['h'],0,[0.1650136000243947],25.32338840002194,None,,001,2020_Jun_08_2137,Criterion,2020.1.3,60.18411524603435,
b,u,media/dbnb.png,2,1,17,1,,,,,,,25.511223200010136,None,25.511223200010136,None,['u'],0,[0.15319530002307147],25.511223200010136,None,,001,2020_Jun_08_2137,Criterion,2020.1.3,60.18411524603435,
e,h,media/denb.png,2,2,18,4,,,,,,,25.688773199915886,None,25.688773199915886,None,['i'],0,[0.1614131999667734],25.688773199915886,None,,001,2020_Jun_08_2137,Criterion,2020.1.3,60.18411524603435,
h,l,media/dhnb.png,2,3,19,7,,,,,,,25.874492099974304,None,25.874492099974304,None,['l'],0,[0.062184700043872],25.874492099974304,None,,001,2020_Jun_08_2137,Criterion,2020.1.3,60.18411524603435,
f,u,media/dfnb.png,2,4,20,5,,,,,,,25.956772099947557,None,25.956772099947557,None,['h'],0,[0.14740459993481636],25.956772099947557,None,,001,2020_Jun_08_2137,Criterion,2020.1.3,60.18411524603435,
c,i,media/dcnb.png,2,5,21,2,,,,,,,26.123203599941917,None,26.123203599941917,None,['u'],0,[0.15788230008911341],26.123203599941917,None,,001,2020_Jun_08_2137,Criterion,2020.1.3,60.18411524603435,
d,l,media/ddnb.png,2,6,22,3,,,,,,,26.306466899928637,None,26.306466899928637,None,['h'],0,[0.10201999999117106],26.306466899928637,None,,001,2020_Jun_08_2137,Criterion,2020.1.3,60.18411524603435,
a,h,media/danb.png,2,7,23,0,,,,,,,26.44039649993647,None,26.44039649993647,None,['u'],0,[0.08786059997510165],26.44039649993647,None,,001,2020_Jun_08_2137,Criterion,2020.1.3,60.18411524603435,
f,u,media/dfnb.png,3,0,24,5,,,,,,,26.556634399923496,None,26.556634399923496,None,['i'],0,[0.09970889997202903],26.556634399923496,None,,001,2020_Jun_08_2137,Criterion,2020.1.3,60.18411524603435,
c,i,media/dcnb.png,3,1,25,2,,,,,,,26.688504499965347,None,26.688504499965347,None,['l'],0,[0.039752400014549494],26.688504499965347,None,,001,2020_Jun_08_2137,Criterion,2020.1.3,60.18411524603435,
e,h,media/denb.png,3,2,26,4,,,,,,,26.757287599961273,None,26.757287599961273,None,['h'],0,[0.07562100002542138],26.757287599961273,None,,001,2020_Jun_08_2137,Criterion,2020.1.3,60.18411524603435,
a,h,media/danb.png,3,3,27,0,,,,,,,26.855367499985732,None,26.855367499985732,None,['u'],0,[0.15309320006053895],26.855367499985732,None,,001,2020_Jun_08_2137,Criterion,2020.1.3,60.18411524603435,
b,u,media/dbnb.png,3,4,28,1,,,,,,,27.045589299988933,None,27.045589299988933,None,['h'],0,[0.05930139997508377],27.045589299988933,None,,001,2020_Jun_08_2137,Criterion,2020.1.3,60.18411524603435,
g,i,media/dgnb.png,3,5,29,6,,,,,,,27.129236200009473,None,27.129236200009473,None,['u'],0,[0.11944480007514358],27.129236200009473,None,,001,2020_Jun_08_2137,Criterion,2020.1.3,60.18411524603435,
h,l,media/dhnb.png,3,6,30,7,,,,,,,27.273415399948135,None,27.273415399948135,None,['h'],0,[0.1347978999838233],27.273415399948135,None,,001,2020_Jun_08_2137,Criterion,2020.1.3,60.18411524603435,
d,l,media/ddnb.png,3,7,31,3,,,,,,,27.440124199958518,None,27.440124199958518,None,['l'],0,[0.11253929999656975],27.440124199958518,None,,001,2020_Jun_08_2137,Criterion,2020.1.3,60.18411524603435,
f,u,media/dfnb.png,4,0,32,5,,,,,,,27.574144699960016,None,27.574144699960016,None,['i'],0,[0.018275500042364],27.574144699960016,None,,001,2020_Jun_08_2137,Criterion,2020.1.3,60.18411524603435,
a,h,media/danb.png,4,1,33,0,,,,,,,27.61986719991546,None,27.61986719991546,None,['u'],0,[0.02039560000412166],27.61986719991546,None,,001,2020_Jun_08_2137,Criterion,2020.1.3,60.18411524603435,
h,l,media/dhnb.png,4,2,34,7,,,,,,,27.67253099998925,None,27.67253099998925,None,['h'],0,[0.023748300038278103],27.67253099998925,None,,001,2020_Jun_08_2137,Criterion,2020.1.3,60.18411524603435,
c,i,media/dcnb.png,4,3,35,2,,,,,,,27.723672099993564,None,27.723672099993564,None,['i'],0,[0.10927310003899038],27.723672099993564,None,,001,2020_Jun_08_2137,Criterion,2020.1.3,60.18411524603435,
d,l,media/ddnb.png,4,4,36,3,,,,,,,27.856348100001924,None,27.856348100001924,None,['u'],0,[0.07189589994959533],27.856348100001924,None,,001,2020_Jun_08_2137,Criterion,2020.1.3,60.18411524603435,
e,h,media/denb.png,4,5,37,4,,,,,,,27.95621169998776,None,27.95621169998776,None,['i'],0,[0.1486805999884382],27.95621169998776,None,,001,2020_Jun_08_2137,Criterion,2020.1.3,60.18411524603435,
g,i,media/dgnb.png,4,6,38,6,,,,,,,28.13319289998617,None,28.13319289998617,None,['u'],0,[0.011685999925248325],28.13319289998617,None,,001,2020_Jun_08_2137,Criterion,2020.1.3,60.18411524603435,
b,u,media/dbnb.png,4,7,39,1,,,,,,,28.1742668999359,None,28.1742668999359,None,['l'],0,[0.033782499958761036],28.1742668999359,None,,001,2020_Jun_08_2137,Criterion,2020.1.3,60.18411524603435,
f,u,media/dfnb.png,5,0,40,5,,,,,,,28.24358259991277,None,28.24358259991277,None,['u'],0,[0.10994799993932247],28.24358259991277,None,,001,2020_Jun_08_2137,Criterion,2020.1.3,60.18411524603435,
c,i,media/dcnb.png,5,1,41,2,,,,,,,28.382285499945283,None,28.382285499945283,None,['l'],0,[0.010153800016269088],28.382285499945283,None,,001,2020_Jun_08_2137,Criterion,2020.1.3,60.18411524603435,
e,h,media/denb.png,5,2,42,4,,,,,,,28.4239993999945,None,28.4239993999945,None,['h'],0,[0.040383500047028065],28.4239993999945,None,,001,2020_Jun_08_2137,Criterion,2020.1.3,60.18411524603435,
g,i,media/dgnb.png,5,3,43,6,,,,,,,28.490692899911664,None,28.490692899911664,None,['i'],0,[0.10157450009137392],28.490692899911664,None,,001,2020_Jun_08_2137,Criterion,2020.1.3,60.18411524603435,
d,l,media/ddnb.png,5,4,44,3,,,,,,,28.62465869996231,None,28.62465869996231,None,['l'],0,[0.008310899953357875],28.62465869996231,None,,001,2020_Jun_08_2137,Criterion,2020.1.3,60.18411524603435,
b,u,media/dbnb.png,5,5,45,1,,,,,,,28.661232999991626,None,28.661232999991626,None,['h'],0,[0.05118070007301867],28.661232999991626,None,,001,2020_Jun_08_2137,Criterion,2020.1.3,60.18411524603435,
h,l,media/dhnb.png,5,6,46,7,,,,,,,28.741490199929103,None,28.741490199929103,None,['i'],0,[0.09094470005948097],28.741490199929103,None,,001,2020_Jun_08_2137,Criterion,2020.1.3,60.18411524603435,
a,h,media/danb.png,5,7,47,0,,,,,,,28.860957099939696,None,28.860957099939696,None,['l'],0,[0.011269899900071323],28.860957099939696,None,,001,2020_Jun_08_2137,Criterion,2020.1.3,60.18411524603435,
c,i,media/dcnb.png,6,0,48,2,,,,,,,28.903510999982245,None,28.903510999982245,None,['h'],0,[0.0406895000487566],28.903510999982245,None,,001,2020_Jun_08_2137,Criterion,2020.1.3,60.18411524603435,
d,l,media/ddnb.png,6,1,49,3,,,,,,,28.974902299931273,None,28.974902299931273,None,['i'],0,[0.08128699997905642],28.974902299931273,None,,001,2020_Jun_08_2137,Criterion,2020.1.3,60.18411524603435,
a,h,media/danb.png,6,2,50,0,,,,,,,29.091689000022598,None,29.091689000022598,None,['h'],0,[0.08432250004261732],29.091689000022598,None,,001,2020_Jun_08_2137,Criterion,2020.1.3,60.18411524603435,
h,l,media/dhnb.png,6,3,51,7,,,,,,,29.20814140001312,None,29.20814140001312,None,['i'],0,[0.09662729990668595],29.20814140001312,None,,001,2020_Jun_08_2137,Criterion,2020.1.3,60.18411524603435,
g,i,media/dgnb.png,6,4,52,6,,,,,,,29.331363099976443,None,29.331363099976443,None,['h'],0,[0.10153290000744164],29.331363099976443,None,,001,2020_Jun_08_2137,Criterion,2020.1.3,60.18411524603435,
e,h,media/denb.png,6,5,53,4,,,,,,,29.45884500001557,None,29.45884500001557,None,['i'],0,[0.09361660003196448],29.45884500001557,None,,001,2020_Jun_08_2137,Criterion,2020.1.3,60.18411524603435,
f,u,media/dfnb.png,6,6,54,5,,,,,,,29.575303399935365,None,29.575303399935365,None,['h'],0,[0.11350310000125319],29.575303399935365,None,,001,2020_Jun_08_2137,Criterion,2020.1.3,60.18411524603435,
b,u,media/dbnb.png,6,7,55,1,,,,,,,29.714525799965486,None,29.714525799965486,None,['i'],0,[0.10207620006985962],29.714525799965486,None,,001,2020_Jun_08_2137,Criterion,2020.1.3,60.18411524603435,
a,h,media/danb.png,7,0,56,0,,,,,,,29.854478399967775,None,29.854478399967775,None,['h'],0,[0.08205399999860674],29.854478399967775,None,,001,2020_Jun_08_2137,Criterion,2020.1.3,60.18411524603435,
e,h,media/denb.png,7,1,57,4,,,,,,,29.971205299953,None,29.971205299953,None,['i'],0,[0.0932040000334382],29.971205299953,None,,001,2020_Jun_08_2137,Criterion,2020.1.3,60.18411524603435,
g,i,media/dgnb.png,7,2,58,6,,,,,,,30.09385599999223,None,30.09385599999223,None,['h'],0,[0.09076869999989867],30.09385599999223,None,,001,2020_Jun_08_2137,Criterion,2020.1.3,60.18411524603435,
b,u,media/dbnb.png,7,3,59,1,,,,,,,30.20896969991736,None,30.20896969991736,None,['h'],0,[0.24719729996286333],30.20896969991736,None,,001,2020_Jun_08_2137,Criterion,2020.1.3,60.18411524603435,
f,u,media/dfnb.png,7,4,60,5,,,,,,,30.488495099940337,None,30.488495099940337,None,['h'],0,[0.27284889994189143],30.488495099940337,None,,001,2020_Jun_08_2137,Criterion,2020.1.3,60.18411524603435,
c,i,media/dcnb.png,7,5,61,2,,,,,,,30.78626019996591,None,30.78626019996591,None,['u'],0,[0.07906120002735406],30.78626019996591,None,,001,2020_Jun_08_2137,Criterion,2020.1.3,60.18411524603435,
d,l,media/ddnb.png,7,6,62,3,,,,,,,30.900898899999447,None,30.900898899999447,None,['h'],0,[0.1235368000343442],30.900898899999447,None,,001,2020_Jun_08_2137,Criterion,2020.1.3,60.18411524603435,
h,l,media/dhnb.png,7,7,63,7,,,,,,,31.06173299998045,None,31.06173299998045,None,['l'],0,[0.1401615000795573],31.06173299998045,None,,001,2020_Jun_08_2137,Criterion,2020.1.3,60.18411524603435,
b,u,media/dbnb.png,8,0,64,1,,,,,,,31.23531819996424,None,31.23531819996424,None,['i'],0,[0.005130400066263974],31.23531819996424,None,,001,2020_Jun_08_2137,Criterion,2020.1.3,60.18411524603435,
g,i,media/dgnb.png,8,1,65,6,,,,,,,31.280140499933623,None,31.280140499933623,None,['h'],0,[0.056735799997113645],31.280140499933623,None,,001,2020_Jun_08_2137,Criterion,2020.1.3,60.18411524603435,
d,l,media/ddnb.png,8,2,66,3,,,,,,,31.363560599973425,None,31.363560599973425,None,['u'],0,[0.16589250008109957],31.363560599973425,None,,001,2020_Jun_08_2137,Criterion,2020.1.3,60.18411524603435,
e,h,media/denb.png,8,3,67,4,,,,,,,31.555387299973518,None,31.555387299973518,None,['i'],0,[0.021193500026129186],31.555387299973518,None,,001,2020_Jun_08_2137,Criterion,2020.1.3,60.18411524603435,
c,i,media/dcnb.png,8,4,68,2,,,,,,,31.602210099925287,None,31.602210099925287,None,['h'],0,[0.061995399999432266],31.602210099925287,None,,001,2020_Jun_08_2137,Criterion,2020.1.3,60.18411524603435,
f,u,media/dfnb.png,8,5,69,5,,,,,,,31.707867400022224,None,31.707867400022224,None,['u'],0,[0.12507569999434054],31.707867400022224,None,,001,2020_Jun_08_2137,Criterion,2020.1.3,60.18411524603435,
h,l,media/dhnb.png,8,6,70,7,,,,,,,31.871703199925832,None,31.871703199925832,None,['h'],0,[0.08154519996605814],31.871703199925832,None,,001,2020_Jun_08_2137,Criterion,2020.1.3,60.18411524603435,
a,h,media/danb.png,8,7,71,0,,,,,,,31.995451899943873,None,31.995451899943873,None,"['u', 'i']",0,"[0.10114949999842793, 0.11734569992404431]",31.995451899943873,None,,001,2020_Jun_08_2137,Criterion,2020.1.3,60.18411524603435,
g,i,media/dgnb.png,9,0,72,6,,,,,,,32.14511169993784,None,32.14511169993784,None,['h'],0,[0.07150809990707785],32.14511169993784,None,,001,2020_Jun_08_2137,Criterion,2020.1.3,60.18411524603435,
h,l,media/dhnb.png,9,1,73,7,,,,,,,32.25778939994052,None,32.25778939994052,None,['u'],0,[0.0866316999308765],32.25778939994052,None,,001,2020_Jun_08_2137,Criterion,2020.1.3,60.18411524603435,
c,i,media/dcnb.png,9,2,74,2,,,,,,,32.37933769996744,None,32.37933769996744,None,['h'],0,[0.08494820003397763],32.37933769996744,None,,001,2020_Jun_08_2137,Criterion,2020.1.3,60.18411524603435,
a,h,media/danb.png,9,3,75,0,,,,,,,32.51408639992587,None,32.51408639992587,None,"['i', 'l']",0,"[0.11117039993405342, 0.1264579000417143]",32.51408639992587,None,,001,2020_Jun_08_2137,Criterion,2020.1.3,60.18411524603435,
d,l,media/ddnb.png,9,4,76,3,,,,,,,32.67674539994914,None,32.67674539994914,None,['h'],0,[0.051578299957327545],32.67674539994914,None,,001,2020_Jun_08_2137,Criterion,2020.1.3,60.18411524603435,
e,h,media/denb.png,9,5,77,4,,,,,,,32.76420169998892,None,32.76420169998892,None,"['u', 'i']",0,"[0.08449549996294081, 0.10815750004258007]",32.76420169998892,None,,001,2020_Jun_08_2137,Criterion,2020.1.3,60.18411524603435,
b,u,media/dbnb.png,9,6,78,1,,,,,,,32.89684329996817,None,32.89684329996817,None,['h'],0,[0.07941280002705753],32.89684329996817,None,,001,2020_Jun_08_2137,Criterion,2020.1.3,60.18411524603435,
f,u,media/dfnb.png,9,7,79,5,,,,,,,33.01367619994562,None,33.01367619994562,None,['h'],0,[1.0584410999435931],33.01367619994562,None,,001,2020_Jun_08_2137,Criterion,2020.1.3,60.18411524603435,
